Folder: ofet-db/db_feed/P3HT/Experimental/Experimental_1/HQ-1-12-5/uv-vis

File: 5g_L_film.csv
wavelength (nm),Absorbance
800.001,0.0187616
797.985,0.0187888
796.003,0.01940191
793.984,0.0209844
791.998,0.019895
790.011,0.0199417
787.987,0.0219179
785.997,0.0224449
784.005,0.0217423
782.012,0.0203689
780.017,0.0201043
777.986,0.0228383
775.988,0.0206653
773.988,0.0219334
771.987,0.0227009
769.984,0.0238613
768.016,0.0231331
766.01,0.0229528
764.003,0.0237995
761.995,0.0233841
759.985,0.02385515
758.008,0.0234262
755.995,0.0243276
754.016,0.0245375
752,0.0245944
749.983,0.02524606
748,0.0269883
746.015,0.0252255
743.993,0.0255287
742.005,0.0277563
740.016,0.0273625
737.99,0.0271251
735.998,0.0285375
734.005,0.0283196
732.01,0.028548
730.014,0.0286825
728.017,0.0300118
725.983,0.0310689
723.982,0.0307325
722.016,0.0310318
720.014,0.0317226
718.009,0.032608
716.004,0.03270204
713.997,0.0327971
711.988,0.0341233
710.015,0.034392
708.003,0.0341009
705.991,0.035378
704.013,0.036788
701.998,0.0364554
699.982,0.0370816
698,0.0380774
696.018,0.0383723
693.997,0.03821167
692.012,0.03952058
689.989,0.0408747
688.001,0.0426803
686.012,0.0434004
683.985,0.0440006
681.993,0.0449096
680,0.0457499
678.006,0.046682
676.011,0.0487224
674.014,0.049446
672.016,0.052159
670.017,0.0542141
668.017,0.0549551
666.015,0.0576863
664.012,0.0601191
662.008,0.0619296
660.003,0.0656359
657.996,0.0695741
655.989,0.0728288
654.016,0.0775583
652.006,0.0826857
649.995,0.08842
647.983,0.095533
646.006,0.10312
643.991,0.109734
642.012,0.11932
639.995,0.130816
638.013,0.14054
635.994,0.154877
634.01,0.168389
631.988,0.181221
630.002,0.195792
628.015,0.210803
625.99,0.225568
624.001,0.238108
622.01,0.249699
619.982,0.26051
617.989,0.269024
615.995,0.276501
614,0.282802
612.005,0.287073
610.008,0.28889
608.009,0.291233
606.01,0.292503
604.01,0.291574
602.009,0.290187
600.006,0.288748
598.003,0.28784
595.999,0.287281
593.993,0.28782
591.987,0.288284
590.016,0.290425
588.008,0.293063
585.998,0.297622
583.987,0.302127
582.013,0.30968
580,0.316311
577.987,0.322296
576.009,0.329386
573.993,0.337651
572.014,0.344067
569.996,0.351546
568.015,0.357
565.995,0.361197
564.012,0.365388
561.99,0.367556
560.005,0.369164
557.981,0.369616
555.994,0.370629
554.006,0.368843
552.017,0.367322
549.99,0.365168
547.999,0.362879
546.007,0.361949
544.014,0.359842
541.983,0.358014
539.989,0.357092
537.993,0.355437
535.997,0.355321
533.999,0.354656
532.001,0.353893
530.002,0.353489
528.002,0.353361
526.001,0.352042
523.999,0.351004
521.996,0.348343
519.993,0.346101
517.988,0.343709
515.983,0.340387
514.015,0.336465
512.008,0.332617
510,0.32744
507.991,0.322417
505.981,0.3172
504.009,0.312073
501.997,0.3078
499.985,0.301982
498.01,0.297096
495.996,0.292199
493.981,0.287427
492.004,0.282759
489.987,0.278174
488.008,0.272864
485.99,0.268847
484.009,0.263253
481.99,0.258045
480.007,0.252754
477.986,0.247285
476.002,0.241462
474.017,0.236345
471.994,0.230102
470.007,0.224795
467.982,0.218816
465.994,0.213045
464.006,0.20648
462.016,0.20181
459.988,0.196398
457.997,0.192011
456.006,0.18648
454.013,0.181536
451.982,0.177221
449.988,0.172509
447.993,0.167461
445.998,0.163002
444.002,0.158178
442.005,0.154718
440.008,0.150035
438.01,0.145755
436.011,0.141595
434.0112,0.137822
432.011,0.133823
430.01,0.130852
428.008,0.12748
426.006,0.123508
424.003,0.120011
421.999,0.116749
419.994,0.114046
417.989,0.110932
415.983,0.108098
414.015,0.105308
412.008,0.101972
410,0.0995468
407.991,0.0973646
405.982,0.0936642
404.011,0.0919672
402.001,0.08916083
399.989,0.0870101
398.016,0.08500313
396.004,0.0829253
393.991,0.0803495
392.015,0.07807254
390.001,0.0754522
387.986,0.0738407
386.009,0.0724407
383.993,0.07023561
382.015,0.0684226
379.997,0.0659765
378.018,0.0646725
375.999,0.06258519
374.019,0.0610431
371.999,0.0601864
370.017,0.0583482
367.996,0.0567404
366.013,0.05554251
363.99,0.0544795
362.006,0.0527105
359.983,0.0515572
357.998,0.0503922
356.012,0.0490821
353.987,0.0480396
352,0.0468398
350.987,0.0465031