Folder: ofet-db/db_feed/P3HT/Experimental/Experimental_1/HQ-1-12-1/uv-vis

File: 1g_L_film.csv
wavelength (nm),Absorbance
800.001,0.002262987
797.985,0.000516033
796.003,0.001811311
793.984,0.001217024
791.998,0.000270385
790.011,0.001158491
787.987,0.003381986
785.997,0.002482037
784.005,0.000555117
782.012,0.002232335
780.017,0.002310947
777.986,0.001959712
775.988,0.000471691
773.988,0.001239453
771.987,0.000940756
769.984,0.003320526
768.016,0.001918317
766.01,0.001136612
764.003,0.001913741
761.995,0.001340423
759.985,0.001867202
758.008,0.000997781
755.995,0.001260091
754.016,0.001661247
752,0.001653036
749.983,0.002005323
748,0.003356655
746.015,0.001485623
743.993,0.00131991
742.005,0.002150798
740.016,0.002322371
737.99,0.000914141
735.998,0.002429372
734.005,0.001347953
732.01,0.001337125
730.014,0.002343738
728.017,0.001980488
725.983,0.002742588
723.982,0.001823581
722.016,0.002061213
720.014,0.002086313
718.009,0.002058794
716.004,0.002350895
713.997,0.001820539
711.988,0.001918213
710.015,0.002290284
708.003,0.001849135
705.991,0.001364987
704.013,0.002417971
701.998,0.002282373
699.982,0.002243549
698,0.002564156
696.018,0.002617853
693.997,0.001142918
692.012,0.001769229
689.989,0.002473601
688.001,0.003027225
686.012,0.002878512
683.985,0.00217814
681.993,0.002470087
680,0.00255184
678.006,0.002732533
676.011,0.002412791
674.014,0.002268712
672.016,0.0035012
670.017,0.003915559
668.017,0.002676713
666.015,0.004610814
664.012,0.002741416
662.008,0.002712762
660.003,0.004538559
657.996,0.004925346
655.989,0.004924822
654.016,0.005363316
652.006,0.005532546
649.995,0.006925845
647.983,0.00700481
646.006,0.007920096
643.991,0.008131758
642.012,0.0106502
639.995,0.0102272
638.013,0.0114994
635.994,0.0144588
634.01,0.0161319
631.988,0.0166207
630.002,0.0190352
628.015,0.0204677
625.99,0.0225378
624.001,0.0254689
622.01,0.0272815
619.982,0.0291282
617.989,0.0311493
615.995,0.03240978
614,0.03505012
612.005,0.0363479
610.008,0.0369091
608.009,0.0380587
606.01,0.039611
604.01,0.0405184
602.009,0.0409198
600.006,0.0411968
598.003,0.0423179
595.999,0.042171
593.993,0.0421576
591.987,0.0434072
590.016,0.0442567
588.008,0.0446627
585.998,0.0451891
583.987,0.0454268
582.013,0.047611
580,0.0484621
577.987,0.0495855
576.009,0.0510264
573.993,0.0519043
572.014,0.0534611
569.996,0.0545955
568.015,0.0553639
565.995,0.0563868
564.012,0.0582361
561.99,0.0583348
560.005,0.0585728
557.981,0.0593331
555.994,0.06052053
554.006,0.06049205
552.017,0.0600117
549.99,0.0601178
547.999,0.059989
546.007,0.0599708
544.014,0.0599641
541.983,0.05988539
539.989,0.05958515
537.993,0.0591465
535.997,0.0591115
533.999,0.0591042
532.001,0.0583896
530.002,0.0581853
528.002,0.05813
526.001,0.0578521
523.999,0.0575544
521.996,0.0565902
519.993,0.05632814
517.988,0.0557662
515.983,0.0554608
514.015,0.0550931
512.008,0.0537847
510,0.0531281
507.991,0.05240668
505.981,0.0513312
504.009,0.04993188
501.997,0.0498927
499.985,0.0487718
498.01,0.047797
495.996,0.0467452
493.981,0.0456365
492.004,0.0448308
489.987,0.044264
488.008,0.0437844
485.99,0.042347
484.009,0.0415996
481.99,0.040299
480.007,0.0393983
477.986,0.0388839
476.002,0.0373601
474.017,0.0365986
471.994,0.035498
470.007,0.0347606
467.982,0.0336477
465.994,0.0328457
464.006,0.0309637
462.016,0.0308018
459.988,0.0300681
457.997,0.0294871
456.006,0.0286204
454.013,0.0274327
451.982,0.0266175
449.988,0.0260175
447.993,0.02440387
445.998,0.024224
444.002,0.0234078
442.005,0.0232589
440.008,0.0218058
438.01,0.02117
436.011,0.0204341
434.0112,0.0200572
432.011,0.0193302
430.01,0.0195116
428.008,0.0185274
426.006,0.0179111
424.003,0.0169529
421.999,0.01631278
419.994,0.0162057
417.989,0.015681
415.983,0.01534412
414.015,0.0150153
412.008,0.0142698
410,0.0139459
407.991,0.013734
405.982,0.012933
404.011,0.0127125
402.001,0.0125029
399.989,0.0116295
398.016,0.01174294
396.004,0.0114933
393.991,0.0113136
392.015,0.0107606
390.001,0.0101421
387.986,0.009722298
386.009,0.009992582
383.993,0.009590382
382.015,0.008996936
379.997,0.00883359
378.018,0.009459484
375.999,0.008379968
374.019,0.008264473
371.999,0.008293838
370.017,0.008024662
367.996,0.008017806
366.013,0.007999797
363.99,0.007521601
362.006,0.007460685
359.983,0.007835929
357.998,0.007330191
356.012,0.00740033
353.987,0.007679501
352,0.006833061
350.987,0.007730619