Folder: ofet-db/db_feed/P3HT/Experimental/Experimental_1/HQ-1-12-8/uv-vis

File: 8g_L_film.csv
wavelength (nm),Absorbance
800.001,0.0438749
797.985,0.0424046
796.003,0.0442542
793.984,0.0440973
791.998,0.0441434
790.011,0.0447174
787.987,0.0463353
785.997,0.0463073
784.005,0.0444737
782.012,0.0464112
780.017,0.0464583
777.986,0.0476472
775.988,0.0459744
773.988,0.0476152
771.987,0.0484613
769.984,0.0494418
768.016,0.0482414
766.01,0.048309
764.003,0.0498616
761.995,0.0500307
759.985,0.0506981
758.008,0.0498559
755.995,0.0509271
754.016,0.0518172
752,0.0510762
749.983,0.0526108
748,0.0536491
746.015,0.053323
743.993,0.0533913
742.005,0.0546065
740.016,0.0552203
737.99,0.0549269
735.998,0.0561463
734.005,0.0556448
732.01,0.0576548
730.014,0.05825
728.017,0.0591376
725.983,0.0597811
723.982,0.0597783
722.016,0.0606317
720.014,0.06070473
718.009,0.06147182
716.004,0.0620883
713.997,0.0621789
711.988,0.0636648
710.015,0.064078
708.003,0.0640975
705.991,0.0657111
704.013,0.0661905
701.998,0.0666788
699.982,0.0670803
698,0.0677008
696.018,0.068338
693.997,0.06865783
692.012,0.0694081
689.989,0.0705847
688.001,0.0723078
686.012,0.072887
683.985,0.0738278
681.993,0.0741834
680,0.0760732
678.006,0.0769279
676.011,0.0772324
674.014,0.0785897
672.016,0.0821922
670.017,0.08321
668.017,0.0846393
666.015,0.0870295
664.012,0.0882982
662.008,0.0899864
660.003,0.0945375
657.996,0.09823817
655.989,0.100728
654.016,0.104644
652.006,0.108546
649.995,0.1141451
647.983,0.120351
646.006,0.126708
643.991,0.13377
642.012,0.144138
639.995,0.154162
638.013,0.165413
635.994,0.181583
634.01,0.195045
631.988,0.211859
630.002,0.229625
628.015,0.248416
625.99,0.267888
624.001,0.286692
622.01,0.304191
619.982,0.321316
617.989,0.335875
615.995,0.348587
614,0.361168
612.005,0.370901
610.008,0.379798
608.009,0.386843
606.01,0.392372
604.01,0.395422
602.009,0.399876
600.006,0.401157
598.003,0.404826
595.999,0.406613
593.993,0.410126
591.987,0.413639
590.016,0.419112
588.008,0.425317
585.998,0.43357
583.987,0.442409
582.013,0.453537
580,0.464792
577.987,0.477134
576.009,0.4901
573.993,0.505383
572.014,0.518102
569.996,0.534774
568.015,0.547188
565.995,0.557293
564.012,0.569294
561.99,0.57807
560.005,0.584772
557.981,0.591728
555.994,0.598023
554.006,0.602423
552.017,0.604005
549.99,0.607051
547.999,0.607566
546.007,0.608935
544.014,0.610562
541.983,0.611069
539.989,0.611953
537.993,0.614359
535.997,0.614975
533.999,0.617678
532.001,0.618184
530.002,0.620419
528.002,0.622633
526.001,0.623239
523.999,0.623516
521.996,0.622927
519.993,0.621438
517.988,0.620248
515.983,0.617552
514.015,0.613321
512.008,0.609172
510,0.604429
507.991,0.598171
505.981,0.592137
504.009,0.585348
501.997,0.578383
499.985,0.57044
498.01,0.564202
495.996,0.557515
493.981,0.549421
492.004,0.541955
489.987,0.534197
488.008,0.526456
485.99,0.519504
484.009,0.511096
481.99,0.502521
480.007,0.49359
477.986,0.484707
476.002,0.473829
474.017,0.464433
471.994,0.453496
470.007,0.444118
467.982,0.432985
465.994,0.421971
464.006,0.411345
462.016,0.401007
459.988,0.3907
457.997,0.381563
456.006,0.371112
454.013,0.361833
451.982,0.35208
449.988,0.342432
447.993,0.33281
445.998,0.323628
444.002,0.313779
442.005,0.305748
440.008,0.297276
438.01,0.288114
436.011,0.280121
434.0112,0.272211
432.011,0.265214
430.01,0.257354
428.008,0.249721
426.006,0.242922
424.003,0.235943
421.999,0.2295
419.994,0.223473
417.989,0.217302
415.983,0.210915
414.015,0.205212
412.008,0.199012
410,0.193579
407.991,0.188405
405.982,0.182645
404.011,0.177954
402.001,0.173915
399.989,0.169207
398.016,0.165338
396.004,0.160452
393.991,0.156399
392.015,0.151967
390.001,0.148022
387.986,0.144274
386.009,0.141228
383.993,0.137135
382.015,0.134137
379.997,0.130314
378.018,0.126944
375.999,0.124855
374.019,0.121697
371.999,0.118343
370.017,0.11575
367.996,0.113377
366.013,0.110722
363.99,0.107904
362.006,0.105566
359.983,0.103177
357.998,0.101035
356.012,0.0990017
353.987,0.0968401
352,0.0946404
350.987,0.0939026