Folder: ofet-db/db_feed/P3HT/Experimental/Experimental_1/HQ-1-12-2/uv-vis

File: 2g_L_film.csv
wavelength (nm),Absorbance
800.001,0.003051729
797.985,0.001531029
796.003,0.002865457
793.984,0.003316953
791.998,0.001830288
790.011,0.003603298
787.987,0.005193079
785.997,0.00353322
784.005,0.001369584
782.012,0.002703046
780.017,0.001150108
777.986,0.003330491
775.988,0.002305091
773.988,0.001376984
771.987,0.004405018
769.984,0.004242867
768.016,0.004330392
766.01,0.002803132
764.003,0.004313921
761.995,0.003303754
759.985,0.003004912
758.008,0.003245017
755.995,0.003006294
754.016,0.002935531
752,0.004197281
749.983,0.003322926
748,0.003951894
746.015,0.00330884
743.993,0.002861288
742.005,0.004469691
740.016,0.003531785
737.99,0.003103582
735.998,0.004171405
734.005,0.003083116
732.01,0.003795317
730.014,0.003702808
728.017,0.003948707
725.983,0.004491033
723.982,0.004006677
722.016,0.003547835
720.014,0.003510934
718.009,0.003908768
716.004,0.003612955
713.997,0.003628147
711.988,0.003940818
710.015,0.004608878
708.003,0.004133824
705.991,0.003829292
704.013,0.004396101
701.998,0.004186356
699.982,0.004077771
698,0.004269295
696.018,0.00397692
693.997,0.003931623
692.012,0.003745131
689.989,0.003823625
688.001,0.004135679
686.012,0.00499028
683.985,0.004353427
681.993,0.005276997
680,0.004387262
678.006,0.004344903
676.011,0.00453971
674.014,0.00493663
672.016,0.005513066
670.017,0.006031259
668.017,0.005678499
666.015,0.00677374
664.012,0.005612701
662.008,0.006650838
660.003,0.007909393
657.996,0.008216563
655.989,0.008279669
654.016,0.008812166
652.006,0.009499011
649.995,0.0112151
647.983,0.012259
646.006,0.0135878
643.991,0.0137579
642.012,0.0168885
639.995,0.0184604
638.013,0.0210598
635.994,0.0237309
634.01,0.0261507
631.988,0.0294119
630.002,0.0323885
628.015,0.0350997
625.99,0.0391731
624.001,0.04244
622.01,0.0456593
619.982,0.047825
617.989,0.0505983
615.995,0.0528517
614,0.0555942
612.005,0.0562524
610.008,0.0565229
608.009,0.0579048
606.01,0.058273
604.01,0.058685
602.009,0.0584188
600.006,0.0574212
598.003,0.05844612
595.999,0.0580264
593.993,0.0582232
591.987,0.0588577
590.016,0.0586801
588.008,0.059638
585.998,0.0601494
583.987,0.0613335
582.013,0.0630142
580,0.0638425
577.987,0.0653107
576.009,0.0666911
573.993,0.0676054
572.014,0.06945274
569.996,0.07192006
568.015,0.0726092
565.995,0.0730085
564.012,0.0738475
561.99,0.0749017
560.005,0.0746394
557.981,0.0743472
555.994,0.0754763
554.006,0.07402
552.017,0.0737613
549.99,0.0737496
547.999,0.0725489
546.007,0.0721407
544.014,0.0717296
541.983,0.0712337
539.989,0.0705118
537.993,0.0700687
535.997,0.0698419
533.999,0.0696775
532.001,0.0687895
530.002,0.0681414
528.002,0.0681723
526.001,0.0673251
523.999,0.0668324
521.996,0.0660496
519.993,0.0647927
517.988,0.06427706
515.983,0.0632441
514.015,0.0625382
512.008,0.06095171
510,0.0598753
507.991,0.0587696
505.981,0.0572823
504.009,0.05585124
501.997,0.0557928
499.985,0.0539946
498.01,0.05296528
495.996,0.0516536
493.981,0.0505785
492.004,0.0494217
489.987,0.0484269
488.008,0.0481111
485.99,0.0465528
484.009,0.0457107
481.99,0.0444483
480.007,0.0434103
477.986,0.0425284
476.002,0.04102613
474.017,0.0405591
471.994,0.0390994
470.007,0.037892
467.982,0.0367081
465.994,0.0360682
464.006,0.0338652
462.016,0.0332422
459.988,0.0326511
457.997,0.0318061
456.006,0.0307413
454.013,0.0299791
451.982,0.0294292
449.988,0.0288446
447.993,0.0275972
445.998,0.0265192
444.002,0.0255327
442.005,0.0254421
440.008,0.0242346
438.01,0.0233903
436.011,0.0226287
434.0112,0.0224892
432.011,0.0214302
430.01,0.0210996
428.008,0.0202126
426.006,0.0194165
424.003,0.0189712
421.999,0.0183841
419.994,0.0182173
417.989,0.0178656
415.983,0.0170444
414.015,0.017436
412.008,0.0165928
410,0.015907
407.991,0.0157854
405.982,0.0154228
404.011,0.0141304
402.001,0.0142346
399.989,0.01352348
398.016,0.0134642
396.004,0.0137395
393.991,0.0136135
392.015,0.0126584
390.001,0.0117703
387.986,0.01136707
386.009,0.0116972
383.993,0.0116343
382.015,0.0112177
379.997,0.0107792
378.018,0.0105677
375.999,0.01055763
374.019,0.0101651
371.999,0.009630661
370.017,0.009618381
367.996,0.01004384
366.013,0.009511129
363.99,0.009829788
362.006,0.009101153
359.983,0.009358936
357.998,0.009695244
356.012,0.008799486
353.987,0.009730107
352,0.008550403
350.987,0.009010282